Folder: cluster-perovskite-data/Data/XRD (part 2)

File: xrd_data_compositions.csv
,CsPbI,FAPbI,MAPbI
0,84.0,0.0,16.0
1,39.0,61.0,0.0
2,35.0,65.0,0.0
3,88.3333,0.333333,11.3333
4,78.0,9.0,13.0
5,91.0,1.0,8.0
6,82.3333,0.333333,17.3333
7,16.0,84.0,0.0
8,62.3333,37.3333,0.333333
9,28.0,65.0,7.0
10,82.3333,3.33333,14.3333
11,16.0,84.0,0.0
12,23.0,66.0,11.0
13,62.3333,37.3333,0.333333
14,87.3333,0.333333,12.3333
15,81.0,0.0,19.0
16,81.0,0.0,19.0
17,35.0,65.0,0.0
18,30.0,69.0,1.0
19,34.3333,53.3333,12.3333
20,80.0,11.0,9.0
21,84.0,0.0,16.0
22,30.0,69.0,1.0
23,87.0,12.0,1.0
24,13.0,85.0,2.0
25,37.0,63.0,0.0
26,88.3333,0.333333,11.3333
27,34.0,64.0,2.0
28,9.0,87.0,4.0
29,41.0,58.0,1.0
30,43.3333,56.3333,0.333333
31,22.3333,77.3333,0.333333
32,69.3333,13.3333,19.3333
33,96.0,4.0,0.0
34,68.3333,0.333333,31.3333
35,19.3333,80.3333,0.333333
36,10.0,90.0,0.0
37,16.3333,84.3333,1.33333
38,17.3333,82.3333,0.333333
39,71.0,1.0,28.0
40,26.3333,37.3333,36.3333
41,26.3333,73.3333,0.333333
42,36.0,1.0,63.0
43,51.3333,0.333333,48.3333
44,0.0,98.0,2.0
45,0.0,60.0,40.0
46,60.0,39.0,1.0
47,2.0,98.0,0.0
48,69.3333,0.333333,30.3333
49,72.0,0.0,28.0
50,55.0,44.0,1.0
51,29.0,71.0,0.0
52,46.3333,52.3333,1.33333
53,73.3333,25.3333,1.33333
54,1.33333,1.33333,97.3333
55,41.0,58.0,1.0
56,21.0,78.0,1.0
57,81.3333,18.3333,0.333333
58,0.333333,98.3333,1.33333
59,1.33333,95.3333,3.33333
60,67.3333,32.3333,0.333333
61,8.33333,91.3333,0.333333
62,37.0,62.0,1.0
63,9.0,91.0,0.0
64,57.0,43.0,0.0
65,71.0,6.0,23.0
66,32.3333,67.3333,0.333333
67,14.3333,85.3333,2.33333
68,19.0,70.0,11.0
69,18.0,76.0,6.0
70,6.0,85.0,9.0
71,25.0,71.0,4.0
72,67.3333,24.3333,10.3333
73,70.0,29.0,1.0
74,23.0,77.0,0.0
75,13.3333,78.3333,8.33333
76,31.0,36.0,33.0
77,24.0,37.0,39.0
78,44.0,55.0,1.0
79,20.0,69.0,11.0
80,32.0,67.0,1.0
81,25.0,75.0,0.0
82,18.0,78.0,4.0
83,26.0,67.0,7.0
84,30.3333,39.3333,32.3333
85,38.0,62.0,0.0
86,76.0,24.0,0.0
87,9.0,85.0,6.0
88,12.3333,80.3333,7.33333
89,31.0,30.0,39.0
90,22.3333,71.3333,6.33333
91,59.0,41.0,0.0
92,68.3333,31.3333,0.333333
93,6.33333,93.3333,0.333333
94,27.3333,73.3333,1.33333
95,16.0,75.0,9.0
96,10.0,89.0,1.0
97,28.0,37.0,35.0
98,26.0,35.0,39.0
99,53.0,47.0,0.0
100,99.0,1.0,0.0
101,98.0,1.0,1.0
102,97.3333,2.33333,0.333333
103,99.0,0.0,1.0
104,88.3333,11.3333,0.333333
105,95.0,0.0,5.0
106,98.0,0.0,2.0
107,97.3333,0.333333,2.33333
108,75.0,0.0,25.0
109,25.0,0.0,75.0
110,100.0,0.0,0.0
111,50.0,50.0,0.0
112,25.0,25.0,50.0
113,50.0,25.0,25.0
114,0.0,0.0,100.0
115,0.0,75.0,25.0
116,75.0,25.0,0.0
117,0.0,25.0,75.0
118,0.0,50.0,50.0
119,0.0,100.0,0.0
120,25.0,50.0,25.0
121,100.0,0.0,0.0
122,25.0,75.0,0.0
123,50.0,0.0,50.0
124,50.0,50.0,0.0
125,50.0,25.0,25.0
126,0.0,100.0,0.0
127,100.0,0.0,0.0
128,25.0,50.0,25.0
129,0.0,50.0,50.0
130,25.0,0.0,75.0
131,25.0,25.0,50.0
132,75.0,25.0,0.0
133,25.0,75.0,0.0
134,0.0,0.0,100.0
135,0.0,25.0,75.0
136,0.0,75.0,25.0
137,50.0,0.0,50.0
138,75.0,0.0,25.0
139,50.0,25.0,25.0
140,50.0,50.0,0.0
141,75.0,25.0,0.0
142,75.0,0.0,25.0
143,50.0,0.0,50.0
144,100.0,0.0,0.0