Folder: cluster-perovskite-data/Data/XRD

Note: README.md
cluster-perovskite-data
===========

## Description

Clustering perovskite degradation data (sample colors vs. time) and plotting XRD for cluster centroids. This repository is linked to our article:

[article details come here]

The data included in this repository is from our previous article: 

Shijing Sun, Armi Tiihonen, Felipe Oviedo, Zhe Liu, Janak Thapa, Yicheng Zhao, Noor Titan P. Hartono, Anuj Goyal, Thomas Heumueller, Clio Batali, Alex Encinas, Jason J. Yoo, Ruipeng Li, Zekun Ren, I. Marius Peters, Christoph J. Brabec, Moungi G. Bawendi, Vladan Stevanovic, John Fisher, Tonio Buonassisi, "A data fusion approach to optimize compositional stability of halide perovskites", Matter, 2021, https://doi.org/10.1016/j.matt.2021.01.008.

## Versions

- 1.0 / Jun, 2022: Latest version

## Authors
||                    |
| ------------- | ------------------------------ |
| **AUTHORS**      | Armi Tiihonen, Shijing Sun | 
| **VERSION**      | 1.0 / June, 2022 | 
| **EMAILS**      | armi.tiihonen@gmail.com | 
||                    |

## Attribution

Please, acknowledge use of this work with the appropiate citation to the repository and research article.

## Citation

    @Misc{cluster-perovskite-data2022,
      author =   {The cluster-perovskite-data authors},
      title =    {{cluster-perovskite-data}: Clustering perovskite degradation data and plotting XRD for cluster centroids},
      howpublished = {\url{https://github.com/PV-Lab/cluster-perovskite-data}},
      year = {2022}
    }
    
    [Insert details of the open HW paper]

File: c1_Cs25FA50MA25.xy
5.00000 280.000
5.20000 231.000
5.40000 254.000
5.60000 245.000
5.80000 244.000
6.00000 208.000
6.20000 208.000
6.40000 216.000
6.60000 231.000
6.80000 196.000
7.00000 189.000
7.20000 162.000
7.40000 155.000
7.60000 198.000
7.80000 162.000
8.00000 164.000
8.20000 169.000
8.40000 141.000
8.60000 139.000
8.80000 152.000
9.00000 128.000
9.20000 145.000
9.40000 187.000
9.60000 199.000
9.80000 347.000
10.00000 246.000
10.20000 154.000
10.40000 119.000
10.60000 105.000
10.80000 127.000
11.00000 126.000
11.20000 125.000
11.40000 124.000
11.60000 121.000
11.80000 115.000
12.00000 110.000
12.20000 135.000
12.40000 155.000
12.60000 315.000
12.80000 234.000
13.00000 214.000
13.20000 177.000
13.40000 120.000
13.60000 211.000
13.80000 581.000
14.00000 1655.000
14.20000 334.000
14.40000 150.000
14.60000 117.000
14.80000 122.000
15.00000 97.000
15.20000 76.000
15.40000 95.000
15.60000 84.000
15.80000 67.000
16.00000 82.000
16.20000 74.000
16.40000 79.000
16.60000 82.000
16.80000 106.000
17.00000 113.000
17.20000 86.000
17.40000 86.000
17.60000 114.000
17.80000 88.000
18.00000 79.000
18.20000 72.000
18.40000 90.000
18.60000 88.000
18.80000 62.000
19.00000 86.000
19.20000 82.000
19.40000 82.000
19.60000 101.000
19.80000 212.000
20.00000 193.000
20.20000 87.000
20.40000 73.000
20.60000 83.000
20.80000 72.000
21.00000 90.000
21.20000 62.000
21.40000 75.000
21.60000 110.000
21.80000 82.000
22.00000 74.000
22.20000 78.000
22.40000 132.000
22.60000 205.000
22.80000 176.000
23.00000 108.000
23.20000 67.000
23.40000 58.000
23.60000 89.000
23.80000 83.000
24.00000 85.000
24.20000 152.000
24.40000 293.000
24.60000 123.000
24.80000 70.000
25.00000 82.000
25.20000 85.000
25.40000 101.000
25.60000 131.000
25.80000 95.000
26.00000 103.000
26.20000 205.000
26.40000 288.000
26.60000 140.000
26.80000 86.000
27.00000 125.000
27.20000 152.000
27.40000 166.000
27.60000 117.000
27.80000 126.000
28.00000 265.000
28.20000 863.000
28.40000 504.000
28.60000 109.000
28.80000 74.000
29.00000 59.000
29.20000 63.000
29.40000 58.000
29.60000 70.000
29.80000 65.000
30.00000 66.000
30.20000 66.000
30.40000 54.000
30.60000 61.000
30.80000 61.000
31.00000 68.000
31.20000 102.000
31.40000 194.000
31.60000 485.000
31.80000 378.000
32.00000 90.000
32.20000 62.000
32.40000 63.000
32.60000 89.000
32.80000 66.000
33.00000 59.000
33.20000 55.000
33.40000 62.000
33.60000 43.000
33.80000 43.000
34.00000 34.000
34.20000 35.000
34.40000 55.000
34.60000 92.000
34.80000 118.000
35.00000 70.000
35.20000 48.000
35.40000 32.000
35.60000 55.000
35.80000 60.000
36.00000 48.000
36.20000 54.000
36.40000 50.000
36.60000 35.000
36.80000 30.000
37.00000 37.000
37.20000 35.000
37.40000 60.000
37.60000 97.000
37.80000 75.000
38.00000 38.000
38.20000 21.000
38.40000 42.000
38.60000 53.000
38.80000 33.000
39.00000 34.000
39.20000 40.000
39.40000 75.000
39.60000 69.000
39.80000 54.000
40.00000 68.000
40.20000 174.000
40.40000 283.000
40.60000 170.000
40.80000 59.000
41.00000 57.000
41.20000 66.000
41.40000 48.000
41.60000 68.000
41.80000 57.000
42.00000 44.000
42.20000 66.000
42.40000 48.000
42.60000 59.000
42.80000 131.000
43.00000 156.000
43.20000 69.000
43.40000 37.000
43.60000 41.000
43.80000 37.000
44.00000 37.000
44.20000 50.000
44.40000 70.000
44.60000 41.000
44.80000 22.000
45.00000 30.000
45.20000 35.000
45.40000 43.000
45.60000 33.000
45.80000 42.000
46.00000 35.000
46.20000 25.000
46.40000 34.000
46.60000 31.000
46.80000 36.000
47.00000 33.000
47.20000 28.000
47.40000 28.000
47.60000 33.000
47.80000 30.000
48.00000 31.000
48.20000 24.000
48.40000 29.000
48.60000 35.000
48.80000 24.000
49.00000 19.000
49.20000 33.000
49.40000 39.000
49.60000 30.000
49.80000 46.000
50.00000 73.000
50.20000 58.000
50.40000 33.000
50.60000 32.000
50.80000 26.000
51.00000 31.000
51.20000 32.000
51.40000 24.000
51.60000 34.000
51.80000 46.000
52.00000 47.000
52.20000 46.000
52.40000 42.000
52.60000 39.000
52.80000 30.000
53.00000 26.000
53.20000 34.000
53.40000 43.000
53.60000 36.000
53.80000 32.000
54.00000 22.000
54.20000 46.000
54.40000 36.000
54.60000 25.000
54.80000 29.000
55.00000 18.000
55.20000 19.000
55.40000 26.000
55.60000 24.000
55.80000 24.000
56.00000 23.000
56.20000 19.000
56.40000 30.000
56.60000 19.000
56.80000 25.000
57.00000 27.000
57.20000 28.000
57.40000 20.000
57.60000 13.000
57.80000 34.000
58.00000 25.000
58.20000 32.000
58.40000 34.000
58.60000 36.000
58.80000 35.000
59.00000 12.000
59.20000 21.000
59.40000 28.000
59.60000 30.000
59.80000 25.000
59.92000 31.000

File: c2_Cs25FA71MA04.xy
5.00000 316.000
5.20000 388.000
5.40000 355.000
5.60000 338.000
5.80000 354.000
6.00000 326.000
6.20000 299.000
6.40000 315.000
6.60000 280.000
6.80000 325.000
7.00000 273.000
7.20000 255.000
7.40000 263.000
7.60000 254.000
7.80000 249.000
8.00000 242.000
8.20000 243.000
8.40000 214.000
8.60000 206.000
8.80000 213.000
9.00000 204.000
9.20000 189.000
9.40000 225.000
9.60000 284.000
9.80000 372.000
10.00000 299.000
10.20000 150.000
10.40000 149.000
10.60000 171.000
10.80000 168.000
11.00000 167.000
11.20000 199.000
11.40000 163.000
11.60000 152.000
11.80000 155.000
12.00000 158.000
12.20000 180.000
12.40000 305.000
12.60000 690.000
12.80000 400.000
13.00000 247.000
13.20000 216.000
13.40000 218.000
13.60000 431.000
13.80000 1174.000
14.00000 1828.000
14.20000 208.000
14.40000 137.000
14.60000 145.000
14.80000 109.000
15.00000 121.000
15.20000 131.000
15.40000 112.000
15.60000 106.000
15.80000 99.000
16.00000 120.000
16.20000 112.000
16.40000 108.000
16.60000 111.000
16.80000 124.000
17.00000 141.000
17.20000 121.000
17.40000 127.000
17.60000 133.000
17.80000 129.000
18.00000 101.000
18.20000 102.000
18.40000 98.000
18.60000 107.000
18.80000 88.000
19.00000 105.000
19.20000 100.000
19.40000 100.000
19.60000 226.000
19.80000 423.000
20.00000 131.000
20.20000 114.000
20.40000 86.000
20.60000 95.000
20.80000 106.000
21.00000 111.000
21.20000 85.000
21.40000 98.000
21.60000 119.000
21.80000 126.000
22.00000 97.000
22.20000 94.000
22.40000 106.000
22.60000 206.000
22.80000 170.000
23.00000 134.000
23.20000 80.000
23.40000 92.000
23.60000 113.000
23.80000 98.000
24.00000 132.000
24.20000 384.000
24.40000 251.000
24.60000 99.000
24.80000 89.000
25.00000 107.000
25.20000 151.000
25.40000 159.000
25.60000 191.000
25.80000 150.000
26.00000 128.000
26.20000 222.000
26.40000 377.000
26.60000 214.000
26.80000 117.000
27.00000 185.000
27.20000 277.000
27.40000 213.000
27.60000 153.000
27.80000 208.000
28.00000 893.000
28.20000 1016.000
28.40000 158.000
28.60000 92.000
28.80000 90.000
29.00000 80.000
29.20000 62.000
29.40000 97.000
29.60000 90.000
29.80000 97.000
30.00000 82.000
30.20000 69.000
30.40000 73.000
30.60000 72.000
30.80000 98.000
31.00000 98.000
31.20000 212.000
31.40000 834.000
31.60000 773.000
31.80000 96.000
32.00000 65.000
32.20000 50.000
32.40000 64.000
32.60000 90.000
32.80000 75.000
33.00000 58.000
33.20000 80.000
33.40000 78.000
33.60000 51.000
33.80000 58.000
34.00000 60.000
34.20000 66.000
34.40000 87.000
34.60000 213.000
34.80000 93.000
35.00000 59.000
35.20000 53.000
35.40000 65.000
35.60000 52.000
35.80000 73.000
36.00000 82.000
36.20000 69.000
36.40000 50.000
36.60000 78.000
36.80000 57.000
37.00000 40.000
37.20000 51.000
37.40000 76.000
37.60000 174.000
37.80000 133.000
38.00000 55.000
38.20000 55.000
38.40000 59.000
38.60000 81.000
38.80000 57.000
39.00000 46.000
39.20000 59.000
39.40000 107.000
39.60000 104.000
39.80000 88.000
40.00000 241.000
40.20000 582.000
40.40000 169.000
40.60000 93.000
40.80000 59.000
41.00000 81.000
41.20000 127.000
41.40000 74.000
41.60000 76.000
41.80000 72.000
42.00000 55.000
42.20000 82.000
42.40000 66.000
42.60000 265.000
42.80000 324.000
43.00000 92.000
43.20000 50.000
43.40000 55.000
43.60000 52.000
43.80000 48.000
44.00000 52.000
44.20000 49.000
44.40000 87.000
44.60000 52.000
44.80000 57.000
45.00000 53.000
45.20000 56.000
45.40000 49.000
45.60000 58.000
45.80000 38.000
46.00000 42.000
46.20000 41.000
46.40000 70.000
46.60000 57.000
46.80000 30.000
47.00000 56.000
47.20000 37.000
47.40000 46.000
47.60000 50.000
47.80000 35.000
48.00000 51.000
48.20000 33.000
48.40000 42.000
48.60000 45.000
48.80000 44.000
49.00000 27.000
49.20000 37.000
49.40000 54.000
49.60000 114.000
49.80000 129.000
50.00000 67.000
50.20000 46.000
50.40000 40.000
50.60000 49.000
50.80000 47.000
51.00000 39.000
51.20000 29.000
51.40000 41.000
51.60000 39.000
51.80000 91.000
52.00000 91.000
52.20000 60.000
52.40000 39.000
52.60000 58.000
52.80000 52.000
53.00000 45.000
53.20000 48.000
53.40000 48.000
53.60000 50.000
53.80000 51.000
54.00000 66.000
54.20000 66.000
54.40000 43.000
54.60000 33.000
54.80000 22.000
55.00000 33.000
55.20000 29.000
55.40000 36.000
55.60000 33.000
55.80000 42.000
56.00000 41.000
56.20000 42.000
56.40000 54.000
56.60000 39.000
56.80000 33.000
57.00000 22.000
57.20000 30.000
57.40000 35.000
57.60000 30.000
57.80000 32.000
58.00000 55.000
58.20000 62.000
58.40000 43.000
58.60000 40.000
58.80000 30.000
59.00000 40.000
59.20000 34.000
59.40000 50.000
59.60000 36.000
59.80000 57.000
59.96000 109.000

File: r1_Cs67FA24MA10.xy
5.00000 374.000
5.20000 377.000
5.40000 366.000
5.60000 323.000
5.80000 316.000
6.00000 310.000
6.20000 313.000
6.40000 277.000
6.60000 296.000
6.80000 285.000
7.00000 249.000
7.20000 259.000
7.40000 253.000
7.60000 260.000
7.80000 241.000
8.00000 202.000
8.20000 234.000
8.40000 229.000
8.60000 226.000
8.80000 198.000
9.00000 201.000
9.20000 200.000
9.40000 288.000
9.60000 358.000
9.80000 570.000
10.00000 396.000
10.20000 186.000
10.40000 174.000
10.60000 164.000
10.80000 170.000
11.00000 144.000
11.20000 180.000
11.40000 145.000
11.60000 160.000
11.80000 153.000
12.00000 156.000
12.20000 158.000
12.40000 222.000
12.60000 397.000
12.80000 337.000
13.00000 368.000
13.20000 229.000
13.40000 193.000
13.60000 318.000
13.80000 814.000
14.00000 1606.000
14.20000 228.000
14.40000 144.000
14.60000 119.000
14.80000 114.000
15.00000 113.000
15.20000 127.000
15.40000 121.000
15.60000 118.000
15.80000 115.000
16.00000 99.000
16.20000 110.000
16.40000 104.000
16.60000 120.000
16.80000 173.000
17.00000 223.000
17.20000 165.000
17.40000 139.000
17.60000 220.000
17.80000 133.000
18.00000 107.000
18.20000 121.000
18.40000 96.000
18.60000 100.000
18.80000 92.000
19.00000 105.000
19.20000 108.000
19.40000 121.000
19.60000 171.000
19.80000 232.000
20.00000 129.000
20.20000 103.000
20.40000 71.000
20.60000 89.000
20.80000 111.000
21.00000 127.000
21.20000 94.000
21.40000 99.000
21.60000 172.000
21.80000 184.000
22.00000 83.000
22.20000 118.000
22.40000 160.000
22.60000 350.000
22.80000 215.000
23.00000 126.000
23.20000 108.000
23.40000 101.000
23.60000 94.000
23.80000 104.000
24.00000 104.000
24.20000 154.000
24.40000 156.000
24.60000 97.000
24.80000 92.000
25.00000 115.000
25.20000 169.000
25.40000 248.000
25.60000 326.000
25.80000 229.000
26.00000 232.000
26.20000 492.000
26.40000 762.000
26.60000 269.000
26.80000 151.000
27.00000 347.000
27.20000 452.000
27.40000 447.000
27.60000 196.000
27.80000 176.000
28.00000 561.000
28.20000 970.000
28.40000 205.000
28.60000 91.000
28.80000 104.000
29.00000 81.000
29.20000 97.000
29.40000 125.000
29.60000 89.000
29.80000 81.000
30.00000 84.000
30.20000 105.000
30.40000 87.000
30.60000 70.000
30.80000 75.000
31.00000 89.000
31.20000 251.000
31.40000 503.000
31.60000 552.000
31.80000 118.000
32.00000 109.000
32.20000 83.000
32.40000 119.000
32.60000 149.000
32.80000 75.000
33.00000 59.000
33.20000 132.000
33.40000 122.000
33.60000 63.000
33.80000 54.000
34.00000 62.000
34.20000 86.000
34.40000 88.000
34.60000 136.000
34.80000 84.000
35.00000 67.000
35.20000 92.000
35.40000 58.000
35.60000 94.000
35.80000 128.000
36.00000 103.000
36.20000 84.000
36.40000 78.000
36.60000 94.000
36.80000 83.000
37.00000 64.000
37.20000 63.000
37.40000 222.000
37.60000 297.000
37.80000 222.000
38.00000 73.000
38.20000 61.000
38.40000 79.000
38.60000 60.000
38.80000 52.000
39.00000 56.000
39.20000 92.000
39.40000 141.000
39.60000 125.000
39.80000 105.000
40.00000 121.000
40.20000 342.000
40.40000 176.000
40.60000 165.000
40.80000 85.000
41.00000 149.000
41.20000 162.000
41.40000 61.000
41.60000 68.000
41.80000 76.000
42.00000 86.000
42.20000 128.000
42.40000 71.000
42.60000 96.000
42.80000 180.000
43.00000 89.000
43.20000 58.000
43.40000 42.000
43.60000 53.000
43.80000 38.000
44.00000 71.000
44.20000 98.000
44.40000 144.000
44.60000 72.000
44.80000 53.000
45.00000 42.000
45.20000 42.000
45.40000 38.000
45.60000 48.000
45.80000 62.000
46.00000 52.000
46.20000 52.000
46.40000 75.000
46.60000 67.000
46.80000 19.000
47.00000 44.000
47.20000 41.000
47.40000 34.000
47.60000 49.000
47.80000 45.000
48.00000 50.000
48.20000 51.000
48.40000 67.000
48.60000 57.000
48.80000 32.000
49.00000 48.000
49.20000 43.000
49.40000 26.000
49.60000 65.000
49.80000 80.000
50.00000 61.000
50.20000 56.000
50.40000 43.000
50.60000 52.000
50.80000 54.000
51.00000 36.000
51.20000 40.000
51.40000 36.000
51.60000 44.000
51.80000 69.000
52.00000 73.000
52.20000 55.000
52.40000 50.000
52.60000 62.000
52.80000 64.000
53.00000 54.000
53.20000 84.000
53.40000 67.000
53.60000 52.000
53.80000 47.000
54.00000 67.000
54.20000 66.000
54.40000 43.000
54.60000 31.000
54.80000 38.000
55.00000 30.000
55.20000 27.000
55.40000 42.000
55.60000 50.000
55.80000 59.000
56.00000 43.000
56.20000 49.000
56.40000 47.000
56.60000 50.000
56.80000 45.000
57.00000 37.000
57.20000 34.000
57.40000 36.000
57.60000 61.000
57.80000 39.000
58.00000 42.000
58.20000 49.000
58.40000 50.000
58.60000 38.000
58.80000 29.000
59.00000 25.000
59.20000 46.000
59.40000 46.000
59.60000 54.000
59.80000 57.000
59.96000 57.000

File: r2_Cs37FA62MA01.xy
5.00000 365.000
5.20000 393.000
5.40000 352.000
5.60000 335.000
5.80000 337.000
6.00000 282.000
6.20000 310.000
6.40000 312.000
6.60000 270.000
6.80000 274.000
7.00000 259.000
7.20000 260.000
7.40000 231.000
7.60000 234.000
7.80000 223.000
8.00000 204.000
8.20000 221.000
8.40000 215.000
8.60000 220.000
8.80000 232.000
9.00000 207.000
9.20000 208.000
9.40000 237.000
9.60000 309.000
9.80000 469.000
10.00000 267.000
10.20000 181.000
10.40000 169.000
10.60000 168.000
10.80000 195.000
11.00000 184.000
11.20000 167.000
11.40000 161.000
11.60000 146.000
11.80000 181.000
12.00000 175.000
12.20000 168.000
12.40000 283.000
12.60000 632.000
12.80000 328.000
13.00000 321.000
13.20000 194.000
13.40000 269.000
13.60000 447.000
13.80000 1313.000
14.00000 1887.000
14.20000 228.000
14.40000 144.000
14.60000 133.000
14.80000 146.000
15.00000 106.000
15.20000 120.000
15.40000 111.000
15.60000 123.000
15.80000 100.000
16.00000 97.000
16.20000 132.000
16.40000 132.000
16.60000 95.000
16.80000 118.000
17.00000 162.000
17.20000 127.000
17.40000 123.000
17.60000 147.000
17.80000 125.000
18.00000 95.000
18.20000 101.000
18.40000 103.000
18.60000 99.000
18.80000 93.000
19.00000 99.000
19.20000 109.000
19.40000 118.000
19.60000 214.000
19.80000 305.000
20.00000 108.000
20.20000 102.000
20.40000 90.000
20.60000 96.000
20.80000 106.000
21.00000 138.000
21.20000 105.000
21.40000 105.000
21.60000 114.000
21.80000 123.000
22.00000 99.000
22.20000 104.000
22.40000 117.000
22.60000 262.000
22.80000 176.000
23.00000 93.000
23.20000 94.000
23.40000 116.000
23.60000 106.000
23.80000 105.000
24.00000 121.000
24.20000 442.000
24.40000 181.000
24.60000 107.000
24.80000 105.000
25.00000 110.000
25.20000 153.000
25.40000 221.000
25.60000 294.000
25.80000 205.000
26.00000 132.000
26.20000 267.000
26.40000 379.000
26.60000 184.000
26.80000 116.000
27.00000 298.000
27.20000 394.000
27.40000 255.000
27.60000 172.000
27.80000 205.000
28.00000 1218.000
28.20000 793.000
28.40000 161.000
28.60000 91.000
28.80000 84.000
29.00000 96.000
29.20000 87.000
29.40000 109.000
29.60000 84.000
29.80000 64.000
30.00000 63.000
30.20000 89.000
30.40000 94.000
30.60000 72.000
30.80000 91.000
31.00000 93.000
31.20000 232.000
31.40000 1028.000
31.60000 521.000
31.80000 107.000
32.00000 82.000
32.20000 90.000
32.40000 91.000
32.60000 128.000
32.80000 56.000
33.00000 49.000
33.20000 100.000
33.40000 96.000
33.60000 46.000
33.80000 53.000
34.00000 65.000
34.20000 63.000
34.40000 99.000
34.60000 148.000
34.80000 58.000
35.00000 55.000
35.20000 63.000
35.40000 65.000
35.60000 67.000
35.80000 89.000
36.00000 95.000
36.20000 72.000
36.40000 53.000
36.60000 61.000
36.80000 65.000
37.00000 55.000
37.20000 46.000
37.40000 133.000
37.60000 198.000
37.80000 130.000
38.00000 38.000
38.20000 55.000
38.40000 65.000
38.60000 55.000
38.80000 46.000
39.00000 53.000
39.20000 74.000
39.40000 93.000
39.60000 116.000
39.80000 110.000
40.00000 317.000
40.20000 460.000
40.40000 131.000
40.60000 106.000
40.80000 85.000
41.00000 99.000
41.20000 95.000
41.40000 60.000
41.60000 71.000
41.80000 53.000
42.00000 75.000
42.20000 109.000
42.40000 83.000
42.60000 346.000
42.80000 244.000
43.00000 63.000
43.20000 41.000
43.40000 41.000
43.60000 60.000
43.80000 54.000
44.00000 54.000
44.20000 64.000
44.40000 88.000
44.60000 72.000
44.80000 39.000
45.00000 50.000
45.20000 52.000
45.40000 44.000
45.60000 46.000
45.80000 44.000
46.00000 44.000
46.20000 49.000
46.40000 69.000
46.60000 57.000
46.80000 40.000
47.00000 48.000
47.20000 47.000
47.40000 56.000
47.60000 44.000
47.80000 52.000
48.00000 53.000
48.20000 51.000
48.40000 41.000
48.60000 55.000
48.80000 40.000
49.00000 32.000
49.20000 32.000
49.40000 47.000
49.60000 140.000
49.80000 95.000
50.00000 51.000
50.20000 35.000
50.40000 50.000
50.60000 49.000
50.80000 51.000
51.00000 35.000
51.20000 37.000
51.40000 32.000
51.60000 46.000
51.80000 136.000
52.00000 90.000
52.20000 45.000
52.40000 56.000
52.60000 37.000
52.80000 43.000
53.00000 42.000
53.20000 59.000
53.40000 60.000
53.60000 41.000
53.80000 41.000
54.00000 67.000
54.20000 63.000
54.40000 31.000
54.60000 34.000
54.80000 31.000
55.00000 24.000
55.20000 22.000
55.40000 36.000
55.60000 36.000
55.80000 41.000
56.00000 36.000
56.20000 41.000
56.40000 42.000
56.60000 39.000
56.80000 26.000
57.00000 31.000
57.20000 34.000
57.40000 30.000
57.60000 37.000
57.80000 40.000
58.00000 83.000
58.20000 52.000
58.40000 40.000
58.60000 31.000
58.80000 33.000
59.00000 30.000
59.20000 37.000
59.40000 41.000
59.60000 48.000
59.80000 56.000
59.96000 146.000

File: r3_Cs75FA0MA25.xy
5.00000 267.000
5.20000 265.000
5.40000 268.000
5.60000 239.000
5.80000 217.000
6.00000 211.000
6.20000 231.000
6.40000 206.000
6.60000 223.000
6.80000 200.000
7.00000 201.000
7.20000 176.000
7.40000 176.000
7.60000 186.000
7.80000 192.000
8.00000 186.000
8.20000 161.000
8.40000 176.000
8.60000 165.000
8.80000 182.000
9.00000 166.000
9.20000 192.000
9.40000 239.000
9.60000 376.000
9.80000 610.000
10.00000 320.000
10.20000 163.000
10.40000 151.000
10.60000 112.000
10.80000 118.000
11.00000 140.000
11.20000 111.000
11.40000 98.000
11.60000 112.000
11.80000 100.000
12.00000 109.000
12.20000 126.000
12.40000 144.000
12.60000 280.000
12.80000 253.000
13.00000 456.000
13.20000 144.000
13.40000 107.000
13.60000 111.000
13.80000 134.000
14.00000 265.000
14.20000 522.000
14.40000 138.000
14.60000 107.000
14.80000 77.000
15.00000 86.000
15.20000 87.000
15.40000 89.000
15.60000 82.000
15.80000 76.000
16.00000 79.000
16.20000 62.000
16.40000 89.000
16.60000 92.000
16.80000 179.000
17.00000 162.000
17.20000 98.000
17.40000 109.000
17.60000 200.000
17.80000 100.000
18.00000 60.000
18.20000 73.000
18.40000 74.000
18.60000 56.000
18.80000 58.000
19.00000 61.000
19.20000 80.000
19.40000 82.000
19.60000 89.000
19.80000 95.000
20.00000 113.000
20.20000 113.000
20.40000 78.000
20.60000 73.000
20.80000 75.000
21.00000 126.000
21.20000 82.000
21.40000 97.000
21.60000 138.000
21.80000 96.000
22.00000 64.000
22.20000 67.000
22.40000 185.000
22.60000 317.000
22.80000 135.000
23.00000 47.000
23.20000 81.000
23.40000 72.000
23.60000 100.000
23.80000 59.000
24.00000 57.000
24.20000 52.000
24.40000 67.000
24.60000 107.000
24.80000 69.000
25.00000 77.000
25.20000 155.000
25.40000 159.000
25.60000 241.000
25.80000 175.000
26.00000 264.000
26.20000 527.000
26.40000 455.000
26.60000 170.000
26.80000 135.000
27.00000 289.000
27.20000 360.000
27.40000 276.000
27.60000 125.000
27.80000 65.000
28.00000 71.000
28.20000 79.000
28.40000 132.000
28.60000 312.000
28.80000 126.000
29.00000 88.000
29.20000 67.000
29.40000 92.000
29.60000 73.000
29.80000 69.000
30.00000 52.000
30.20000 69.000
30.40000 60.000
30.60000 78.000
30.80000 40.000
31.00000 95.000
31.20000 233.000
31.40000 129.000
31.60000 63.000
31.80000 75.000
32.00000 176.000
32.20000 131.000
32.40000 129.000
32.60000 106.000
32.80000 60.000
33.00000 59.000
33.20000 105.000
33.40000 68.000
33.60000 48.000
33.80000 43.000
34.00000 57.000
34.20000 52.000
34.40000 64.000
34.60000 55.000
34.80000 53.000
35.00000 57.000
35.20000 78.000
35.40000 60.000
35.60000 82.000
35.80000 74.000
36.00000 55.000
36.20000 57.000
36.40000 79.000
36.60000 62.000
36.80000 57.000
37.00000 50.000
37.20000 86.000
37.40000 178.000
37.60000 209.000
37.80000 96.000
38.00000 40.000
38.20000 34.000
38.40000 43.000
38.60000 43.000
38.80000 38.000
39.00000 51.000
39.20000 61.000
39.40000 67.000
39.60000 51.000
39.80000 51.000
40.00000 49.000
40.20000 52.000
40.40000 85.000
40.60000 104.000
40.80000 110.000
41.00000 118.000
41.20000 69.000
41.40000 45.000
41.60000 47.000
41.80000 40.000
42.00000 60.000
42.20000 63.000
42.40000 36.000
42.60000 47.000
42.80000 48.000
43.00000 42.000
43.20000 47.000
43.40000 51.000
43.60000 43.000
43.80000 48.000
44.00000 78.000
44.20000 75.000
44.40000 79.000
44.60000 35.000
44.80000 36.000
45.00000 29.000
45.20000 33.000
45.40000 29.000
45.60000 38.000
45.80000 42.000
46.00000 20.000
46.20000 45.000
46.40000 55.000
46.60000 35.000
46.80000 34.000
47.00000 30.000
47.20000 37.000
47.40000 23.000
47.60000 33.000
47.80000 45.000
48.00000 36.000
48.20000 39.000
48.40000 49.000
48.60000 31.000
48.80000 26.000
49.00000 29.000
49.20000 21.000
49.40000 30.000
49.60000 37.000
49.80000 40.000
50.00000 34.000
50.20000 42.000
50.40000 47.000
50.60000 53.000
50.80000 33.000
51.00000 18.000
51.20000 32.000
51.40000 34.000
51.60000 36.000
51.80000 60.000
52.00000 45.000
52.20000 36.000
52.40000 34.000
52.60000 46.000
52.80000 52.000
53.00000 59.000
53.20000 56.000
53.40000 38.000
53.60000 30.000
53.80000 36.000
54.00000 34.000
54.20000 43.000
54.40000 16.000
54.60000 18.000
54.80000 30.000
55.00000 22.000
55.20000 21.000
55.40000 27.000
55.60000 33.000
55.80000 35.000
56.00000 35.000
56.20000 38.000
56.40000 27.000
56.60000 30.000
56.80000 34.000
57.00000 19.000
57.20000 24.000
57.40000 21.000
57.60000 32.000
57.80000 25.000
58.00000 22.000
58.20000 23.000
58.40000 21.000
58.60000 22.000
58.80000 23.000
59.00000 26.000
59.20000 31.000
59.40000 27.000
59.60000 31.000
59.80000 30.000
59.92000 40.000